phi spectra  60-80%, pt mt y ystat
0.45  0.09494  0.088185  0.0210632
0.55  0.13896  0.07821  0.0140748
0.65  0.18966  0.07196  0.0110581
0.75  0.24625  0.059305  0.00737518
0.9  0.34054  0.037985  0.00291526
1.1  0.48045  0.025725  0.00221813
1.35  0.67241  0.013915  0.00142584
1.65  0.92029  0.006645  0.000980166
2  1.22563  0.00252  0.000407488
2.4  1.58837  0.0011325  0.000205207
2.8  1.96066  0.0003795  8.31191e-05
3.25  2.387  0.0001514  3.79197e-05
3.75  2.86698  4.9e-05  1.45434e-05
4.5  3.59493  1.1535e-05  4.41237e-06
